Folder: AtckSimLogs/m1_benign

File: 09_26_45_battery_status_0.csv
timestamp,voltage_v,voltage_filtered_v,current_a,current_filtered_a,current_average_a,discharged_mah,remaining,scale,time_remaining_s,temperature,voltage_cell_v[0],voltage_cell_v[1],voltage_cell_v[2],voltage_cell_v[3],voltage_cell_v[4],voltage_cell_v[5],voltage_cell_v[6],voltage_cell_v[7],voltage_cell_v[8],voltage_cell_v[9],voltage_cell_v[10],voltage_cell_v[11],voltage_cell_v[12],voltage_cell_v[13],max_cell_voltage_delta,custom_faults,average_power,available_energy,full_charge_capacity_wh,remaining_capacity_wh,design_capacity,nominal_voltage,capacity,cycle_count,average_time_to_empty,serial_number,manufacture_date,state_of_health,max_error,interface_error,faults,average_time_to_full,over_discharge_count,connected,cell_count,source,priority,id,is_powering_off,is_required,warning,mode
4028000,16.2,16.2,-1.0,-1.0,15.0,0.0,1.0,1.0,nan,nan,0.0,0.0,0.0,0.0,0.0,0.0,0.0,0.0,0.0,0.0,0.0,0.0,0.0,0.0,0.0,0,0.0,0.0,0.0,0.0,0.0,0.0,0,0,0,0,0,0,0,0,0,0,0,1,4,0,0,1,0,0,0,0
6828000,16.2,16.2,-1.0,-1.0,15.0,0.0,1.0,1.0,nan,nan,0.0,0.0,0.0,0.0,0.0,0.0,0.0,0.0,0.0,0.0,0.0,0.0,0.0,0.0,0.0,0,0.0,0.0,0.0,0.0,0.0,0.0,0,0,0,0,0,0,0,0,0,0,0,1,4,0,0,1,0,0,0,0
9828000,16.2,16.2,-1.0,-1.0,15.0,0.0,1.0,1.0,nan,nan,0.0,0.0,0.0,0.0,0.0,0.0,0.0,0.0,0.0,0.0,0.0,0.0,0.0,0.0,0.0,0,0.0,0.0,0.0,0.0,0.0,0.0,0,0,0,0,0,0,0,0,0,0,0,1,4,0,0,1,0,0,0,0
12816000,16.2,16.2,-1.0,-1.0,15.0,0.0,1.0,1.0,nan,nan,0.0,0.0,0.0,0.0,0.0,0.0,0.0,0.0,0.0,0.0,0.0,0.0,0.0,0.0,0.0,0,0.0,0.0,0.0,0.0,0.0,0.0,0,0,0,0,0,0,0,0,0,0,0,1,4,0,0,1,0,0,0,0
15828000,16.2,16.2,-1.0,-1.0,15.0,0.0,1.0,1.0,nan,nan,0.0,0.0,0.0,0.0,0.0,0.0,0.0,0.0,0.0,0.0,0.0,0.0,0.0,0.0,0.0,0,0.0,0.0,0.0,0.0,0.0,0.0,0,0,0,0,0,0,0,0,0,0,0,1,4,0,0,1,0,0,0,0
18828000,16.2,16.2,-1.0,-1.0,15.0,0.0,1.0,1.0,nan,nan,0.0,0.0,0.0,0.0,0.0,0.0,0.0,0.0,0.0,0.0,0.0,0.0,0.0,0.0,0.0,0,0.0,0.0,0.0,0.0,0.0,0.0,0,0,0,0,0,0,0,0,0,0,0,1,4,0,0,1,0,0,0,0
21828000,16.2,16.2,-1.0,-1.0,15.0,0.0,1.0,1.0,nan,nan,0.0,0.0,0.0,0.0,0.0,0.0,0.0,0.0,0.0,0.0,0.0,0.0,0.0,0.0,0.0,0,0.0,0.0,0.0,0.0,0.0,0.0,0,0,0,0,0,0,0,0,0,0,0,1,4,0,0,1,0,0,0,0
24828000,16.2,16.2,-1.0,-1.0,15.0,0.0,1.0,1.0,nan,nan,0.0,0.0,0.0,0.0,0.0,0.0,0.0,0.0,0.0,0.0,0.0,0.0,0.0,0.0,0.0,0,0.0,0.0,0.0,0.0,0.0,0.0,0,0,0,0,0,0,0,0,0,0,0,1,4,0,0,1,0,0,0,0
27816000,16.2,16.2,-1.0,-1.0,15.0,0.0,1.0,1.0,nan,nan,0.0,0.0,0.0,0.0,0.0,0.0,0.0,0.0,0.0,0.0,0.0,0.0,0.0,0.0,0.0,0,0.0,0.0,0.0,0.0,0.0,0.0,0,0,0,0,0,0,0,0,0,0,0,1,4,0,0,1,0,0,0,0
30816000,16.1878,16.19776,-1.0,-1.0,14.8775,0.0,0.998978,1.00011,nan,nan,0.0,0.0,0.0,0.0,0.0,0.0,0.0,0.0,0.0,0.0,0.0,0.0,0.0,0.0,0.0,0,0.0,0.0,0.0,0.0,0.0,0.0,0,0,0,0,0,0,0,0,0,0,0,1,4,0,0,1,0,0,0,0
33828000,16.0974,16.1264,-1.0,-1.0,14.0083,0.0,1.0,1.0,nan,nan,0.0,0.0,0.0,0.0,0.0,0.0,0.0,0.0,0.0,0.0,0.0,0.0,0.0,0.0,0.0,0,0.0,0.0,0.0,0.0,0.0,0.0,0,0,0,0,0,0,0,0,0,0,0,1,4,0,0,1,0,0,0,0
36828000,16.0074,16.0374,-1.0,-1.0,13.1926,0.0,1.0,1.0,nan,nan,0.0,0.0,0.0,0.0,0.0,0.0,0.0,0.0,0.0,0.0,0.0,0.0,0.0,0.0,0.0,0,0.0,0.0,0.0,0.0,0.0,0.0,0,0,0,0,0,0,0,0,0,0,0,1,4,0,0,1,0,0,0,0
39816000,15.9178,15.9478,-1.0,-1.0,12.4268,0.0,1.0,1.0,nan,nan,0.0,0.0,0.0,0.0,0.0,0.0,0.0,0.0,0.0,0.0,0.0,0.0,0.0,0.0,0.0,0,0.0,0.0,0.0,0.0,0.0,0.0,0,0,0,0,0,0,0,0,0,0,0,1,4,0,0,1,0,0,0,0
42828000,15.8274,15.85746,-1.0,-1.0,11.7008,0.0,0.965718,1.00382,nan,nan,0.0,0.0,0.0,0.0,0.0,0.0,0.0,0.0,0.0,0.0,0.0,0.0,0.0,0.0,0.0,0,0.0,0.0,0.0,0.0,0.0,0.0,0,0,0,0,0,0,0,0,0,0,0,1,4,0,0,1,0,0,0,0
45828000,15.7374,15.7675,-1.0,-1.0,11.0194,0.0,0.9185791,1.00913,nan,nan,0.0,0.0,0.0,0.0,0.0,0.0,0.0,0.0,0.0,0.0,0.0,0.0,0.0,0.0,0.0,0,0.0,0.0,0.0,0.0,0.0,0.0,0,0,0,0,0,0,0,0,0,0,0,1,4,0,0,1,0,0,0,0
48828000,15.64744,15.6775,-1.0,-1.0,10.3777,0.0,0.8686342,1.01481,nan,nan,0.0,0.0,0.0,0.0,0.0,0.0,0.0,0.0,0.0,0.0,0.0,0.0,0.0,0.0,0.0,0,0.0,0.0,0.0,0.0,0.0,0.0,0,0,0,0,0,0,0,0,0,0,0,1,4,0,0,1,0,0,0,0
51828000,15.5574,15.5875,-1.0,-1.0,9.773382,0.0,0.8184204,1.02059,nan,nan,0.0,0.0,0.0,0.0,0.0,0.0,0.0,0.0,0.0,0.0,0.0,0.0,0.0,0.0,0.0,0,0.0,0.0,0.0,0.0,0.0,0.0,0,0,0,0,0,0,0,0,0,0,0,1,4,0,0,1,0,0,0,0
54816000,15.4678,15.4978,-1.0,-1.0,9.206083,0.0,0.768816,1.02636,nan,nan,0.0,0.0,0.0,0.0,0.0,0.0,0.0,0.0,0.0,0.0,0.0,0.0,0.0,0.0,0.0,0,0.0,0.0,0.0,0.0,0.0,0.0,0,0,0,0,0,0,0,0,0,0,0,1,4,0,0,1,0,0,0,0
57828000,15.37746,15.4075,-1.0,-1.0,8.668248,0.0,0.718362,1.032304,nan,nan,0.0,0.0,0.0,0.0,0.0,0.0,0.0,0.0,0.0,0.0,0.0,0.0,0.0,0.0,0.0,0,0.0,0.0,0.0,0.0,0.0,0.0,0,0,0,0,0,0,0,0,0,0,0,1,4,0,0,1,0,0,0,0
60828000,15.3,15.3198,-1.0,-1.0,8.163465,0.0,0.669992,1.03806,nan,nan,0.0,0.0,0.0,0.0,0.0,0.0,0.0,0.0,0.0,0.0,0.0,0.0,0.0,0.0,0.0,0,0.0,0.0,0.0,0.0,0.0,0.0,0,0,0,0,0,0,0,0,0,0,0,1,4,0,0,1,0,0,0,0
63828000,15.3,15.301,-1.0,-1.0,7.688077,0.0,0.6585455,1.03944,nan,nan,0.0,0.0,0.0,0.0,0.0,0.0,0.0,0.0,0.0,0.0,0.0,0.0,0.0,0.0,0.0,0,0.0,0.0,0.0,0.0,0.0,0.0,0,0,0,0,0,0,0,0,0,0,0,1,4,0,0,1,0,0,0,0
66816000,15.3,15.3001,-1.0,-1.0,7.24182,0.0,0.6627302,1.03893,nan,nan,0.0,0.0,0.0,0.0,0.0,0.0,0.0,0.0,0.0,0.0,0.0,0.0,0.0,0.0,0.0,0,0.0,0.0,0.0,0.0,0.0,0.0,0,0,0,0,0,0,0,0,0,0,0,1,4,0,0,1,0,0,0,0
69828000,15.3,15.3001,-1.0,-1.0,6.81874,0.0,0.6581526,1.03948,nan,nan,0.0,0.0,0.0,0.0,0.0,0.0,0.0,0.0,0.0,0.0,0.0,0.0,0.0,0.0,0.0,0,0.0,0.0,0.0,0.0,0.0,0.0,0,0,0,0,0,0,0,0,0,0,0,1,4,0,0,1,0,0,0,0
72816000,15.3,15.3001,-1.0,-1.0,6.42294,0.0,0.657663,1.03954,nan,nan,0.0,0.0,0.0,0.0,0.0,0.0,0.0,0.0,0.0,0.0,0.0,0.0,0.0,0.0,0.0,0,0.0,0.0,0.0,0.0,0.0,0.0,0,0,0,0,0,0,0,0,0,0,0,1,4,0,0,1,0,0,0,0
75828000,15.3,15.3001,-1.0,-1.0,6.047705,0.0,0.6610384,1.03914,nan,nan,0.0,0.0,0.0,0.0,0.0,0.0,0.0,0.0,0.0,0.0,0.0,0.0,0.0,0.0,0.0,0,0.0,0.0,0.0,0.0,0.0,0.0,0,0,0,0,0,0,0,0,0,0,0,1,4,0,0,1,0,0,0,0
78816000,15.3,15.3001,-1.0,-1.0,5.69666,0.0,0.65881,1.0394,nan,nan,0.0,0.0,0.0,0.0,0.0,0.0,0.0,0.0,0.0,0.0,0.0,0.0,0.0,0.0,0.0,0,0.0,0.0,0.0,0.0,0.0,0.0,0,0,0,0,0,0,0,0,0,0,0,1,4,0,0,1,0,0,0,0
81828000,15.3,15.3001,-1.0,-1.0,5.36385,0.0,0.6586952,1.03942,nan,nan,0.0,0.0,0.0,0.0,0.0,0.0,0.0,0.0,0.0,0.0,0.0,0.0,0.0,0.0,0.0,0,0.0,0.0,0.0,0.0,0.0,0.0,0,0,0,0,0,0,0,0,0,0,0,1,4,0,0,1,0,0,0,0
84828000,15.3,15.3001,-1.0,-1.0,5.051493,0.0,0.65755,1.03956,nan,nan,0.0,0.0,0.0,0.0,0.0,0.0,0.0,0.0,0.0,0.0,0.0,0.0,0.0,0.0,0.0,0,0.0,0.0,0.0,0.0,0.0,0.0,0,0,0,0,0,0,0,0,0,0,0,1,4,0,0,1,0,0,0,0
87828000,15.3,15.3001,-1.0,-1.0,4.75733,0.0,0.6589041,1.03939,nan,nan,0.0,0.0,0.0,0.0,0.0,0.0,0.0,0.0,0.0,0.0,0.0,0.0,0.0,0.0,0.0,0,0.0,0.0,0.0,0.0,0.0,0.0,0,0,0,0,0,0,0,0,0,0,0,1,4,0,0,1,0,0,0,0
90816000,15.3,15.3001,-1.0,-1.0,4.481185,0.0,0.658612,1.03943,nan,nan,0.0,0.0,0.0,0.0,0.0,0.0,0.0,0.0,0.0,0.0,0.0,0.0,0.0,0.0,0.0,0,0.0,0.0,0.0,0.0,0.0,0.0,0,0,0,0,0,0,0,0,0,0,0,1,4,0,0,1,0,0,0,0
93828000,15.3,15.3001,-1.0,-1.0,4.219384,0.0,0.657241,1.03959,nan,nan,0.0,0.0,0.0,0.0,0.0,0.0,0.0,0.0,0.0,0.0,0.0,0.0,0.0,0.0,0.0,0,0.0,0.0,0.0,0.0,0.0,0.0,0,0,0,0,0,0,0,0,0,0,0,1,4,0,0,1,0,0,0,0
96828000,15.3,15.3001,-1.0,-1.0,3.97367,0.0,0.6808796,1.03676,nan,nan,0.0,0.0,0.0,0.0,0.0,0.0,0.0,0.0,0.0,0.0,0.0,0.0,0.0,0.0,0.0,0,0.0,0.0,0.0,0.0,0.0,0.0,0,0,0,0,0,0,0,0,0,0,0,1,4,0,0,1,0,0,0,0
99828000,15.3,15.3001,-1.0,-1.0,3.74227,0.0,0.6679144,1.03831,nan,nan,0.0,0.0,0.0,0.0,0.0,0.0,0.0,0.0,0.0,0.0,0.0,0.0,0.0,0.0,0.0,0,0.0,0.0,0.0,0.0,0.0,0.0,0,0,0,0,0,0,0,0,0,0,0,1,4,0,0,1,0,0,0,0
102828000,15.3,15.3001,-1.0,-1.0,3.52434,0.0,0.6575575,1.03955,nan,nan,0.0,0.0,0.0,0.0,0.0,0.0,0.0,0.0,0.0,0.0,0.0,0.0,0.0,0.0,0.0,0,0.0,0.0,0.0,0.0,0.0,0.0,0,0,0,0,0,0,0,0,0,0,0,1,4,0,0,1,0,0,0,0
105828000,15.3,15.3001,-1.0,-1.0,3.31911,0.0,0.656578,1.03967,nan,nan,0.0,0.0,0.0,0.0,0.0,0.0,0.0,0.0,0.0,0.0,0.0,0.0,0.0,0.0,0.0,0,0.0,0.0,0.0,0.0,0.0,0.0,0,0,0,0,0,0,0,0,0,0,0,1,4,0,0,1,0,0,0,0
108816000,15.3,15.3001,-1.0,-1.0,3.126449,0.0,0.6572752,1.03959,nan,nan,0.0,0.0,0.0,0.0,0.0,0.0,0.0,0.0,0.0,0.0,0.0,0.0,0.0,0.0,0.0,0,0.0,0.0,0.0,0.0,0.0,0.0,0,0,0,0,0,0,0,0,0,0,0,1,4,0,0,1,0,0,0,0
111828000,15.3,15.3001,-1.0,-1.0,2.9438,0.0,0.659042,1.03938,nan,nan,0.0,0.0,0.0,0.0,0.0,0.0,0.0,0.0,0.0,0.0,0.0,0.0,0.0,0.0,0.0,0,0.0,0.0,0.0,0.0,0.0,0.0,0,0,0,0,0,0,0,0,0,0,0,1,4,0,0,1,0,0,0,0
114816000,15.3,15.3001,-1.0,-1.0,2.77292,0.0,0.6591587,1.039362,nan,nan,0.0,0.0,0.0,0.0,0.0,0.0,0.0,0.0,0.0,0.0,0.0,0.0,0.0,0.0,0.0,0,0.0,0.0,0.0,0.0,0.0,0.0,0,0,0,0,0,0,0,0,0,0,0,1,4,0,0,1,0,0,0,0
117828000,15.3,15.3001,-1.0,-1.0,2.61092,0.0,0.6575146,1.03956,nan,nan,0.0,0.0,0.0,0.0,0.0,0.0,0.0,0.0,0.0,0.0,0.0,0.0,0.0,0.0,0.0,0,0.0,0.0,0.0,0.0,0.0,0.0,0,0,0,0,0,0,0,0,0,0,0,1,4,0,0,1,0,0,0,0
120828000,15.3,15.3001,-1.0,-1.0,2.45888,0.0,0.6603327,1.039221,nan,nan,0.0,0.0,0.0,0.0,0.0,0.0,0.0,0.0,0.0,0.0,0.0,0.0,0.0,0.0,0.0,0,0.0,0.0,0.0,0.0,0.0,0.0,0,0,0,0,0,0,0,0,0,0,0,1,4,0,0,1,0,0,0,0
123828000,15.3,15.3001,-1.0,-1.0,2.31569,0.0,0.6620045,1.03902,nan,nan,0.0,0.0,0.0,0.0,0.0,0.0,0.0,0.0,0.0,0.0,0.0,0.0,0.0,0.0,0.0,0,0.0,0.0,0.0,0.0,0.0,0.0,0,0,0,0,0,0,0,0,0,0,0,1,4,0,0,1,0,0,0,0
126816000,15.3,15.3001,-1.0,-1.0,2.18128,0.0,0.662899,1.03891,nan,nan,0.0,0.0,0.0,0.0,0.0,0.0,0.0,0.0,0.0,0.0,0.0,0.0,0.0,0.0,0.0,0,0.0,0.0,0.0,0.0,0.0,0.0,0,0,0,0,0,0,0,0,0,0,0,1,4,0,0,1,0,0,0,0
129828000,15.3,15.3001,-1.0,-1.0,2.05384,0.0,0.6627054,1.03894,nan,nan,0.0,0.0,0.0,0.0,0.0,0.0,0.0,0.0,0.0,0.0,0.0,0.0,0.0,0.0,0.0,0,0.0,0.0,0.0,0.0,0.0,0.0,0,0,0,0,0,0,0,0,0,0,0,1,4,0,0,1,0,0,0,0
132816000,15.3,15.3001,-1.0,-1.0,1.93463,0.0,0.641486,1.04149,nan,nan,0.0,0.0,0.0,0.0,0.0,0.0,0.0,0.0,0.0,0.0,0.0,0.0,0.0,0.0,0.0,0,0.0,0.0,0.0,0.0,0.0,0.0,0,0,0,0,0,0,0,0,0,0,0,1,4,0,0,1,0,0,0,0
135828000,15.3,15.3001,-1.0,-1.0,1.8216,0.0,0.6622009,1.039,nan,nan,0.0,0.0,0.0,0.0,0.0,0.0,0.0,0.0,0.0,0.0,0.0,0.0,0.0,0.0,0.0,0,0.0,0.0,0.0,0.0,0.0,0.0,0,0,0,0,0,0,0,0,0,0,0,1,4,0,0,1,0,0,0,0
138828000,15.3,15.3001,-1.0,-1.0,1.71552,0.0,0.6593447,1.03934,nan,nan,0.0,0.0,0.0,0.0,0.0,0.0,0.0,0.0,0.0,0.0,0.0,0.0,0.0,0.0,0.0,0,0.0,0.0,0.0,0.0,0.0,0.0,0,0,0,0,0,0,0,0,0,0,0,1,4,0,0,1,0,0,0,0
141828000,15.3,15.3001,-1.0,-1.0,1.61562,0.0,0.659287,1.03935,nan,nan,0.0,0.0,0.0,0.0,0.0,0.0,0.0,0.0,0.0,0.0,0.0,0.0,0.0,0.0,0.0,0,0.0,0.0,0.0,0.0,0.0,0.0,0,0,0,0,0,0,0,0,0,0,0,1,4,0,0,1,0,0,0,0
144828000,15.3,15.3001,-1.0,-1.0,1.52154,0.0,0.6596079,1.03931,nan,nan,0.0,0.0,0.0,0.0,0.0,0.0,0.0,0.0,0.0,0.0,0.0,0.0,0.0,0.0,0.0,0,0.0,0.0,0.0,0.0,0.0,0.0,0,0,0,0,0,0,0,0,0,0,0,1,4,0,0,1,0,0,0,0
147828000,15.3,15.3001,-1.0,-1.0,1.43293,0.0,0.500267,1.05879,nan,nan,0.0,0.0,0.0,0.0,0.0,0.0,0.0,0.0,0.0,0.0,0.0,0.0,0.0,0.0,0.0,0,0.0,0.0,0.0,0.0,0.0,0.0,0,0,0,0,0,0,0,0,0,0,0,1,4,0,0,1,0,0,0,0
149428000,16.2,15.8288,-1.0,-1.0,1.41245,0.0,0.793992,1.02343,nan,nan,0.0,0.0,0.0,0.0,0.0,0.0,0.0,0.0,0.0,0.0,0.0,0.0,0.0,0.0,0.0,0,0.0,0.0,0.0,0.0,0.0,0.0,0,0,0,0,0,0,0,0,0,0,0,1,4,0,0,1,0,0,0,0